rt,response,trial_index,roundID,target,rotation,tangramURLs,director_msg,trial_type,time_elapsed,internal_node_id,annotationLabel,annotation
"8319","[object Object]","1","01JH9TDR2ARR4RHSZMBY3VD2GC","tangrams/33_410.png","270","tangrams/33_410.png,tangrams/110_404.png,tangrams/110_410.png,tangrams/33_404.png","large triangle to the left flat bottom","survey-html-form","8320","0.0-0.0","top_bottom","top_bottom"
"2499","[object Object]","2","01JH9TDR3Z1NV2AWB8E1F3W36N","tangrams/33_400.png","270","tangrams/33_157.png,tangrams/33_400.png,tangrams/273_157.png,tangrams/273_400.png","triangle pointing to the left flat bottom","survey-html-form","10821","0.0-1.0","top_bottom","top_bottom"
"5015","[object Object]","3","01JH9TDR23Z2CP6JREXCPBH40F","tangrams/273_404.png","270","tangrams/273_410.png,tangrams/273_404.png,tangrams/33_410.png,tangrams/33_404.png","rectangle on the left two spikes on the bottom","survey-html-form","15838","0.0-2.0","top_bottom","top_bottom"
"22081","[object Object]","4","01JH9TDR77BSE0X2TBH7D4SXGX","tangrams/110_404.png","270","tangrams/110_400.png,tangrams/115_404.png,tangrams/115_400.png,tangrams/110_404.png","no diamond spike on the bottom","survey-html-form","37921","0.0-3.0","top_bottom","top_bottom"
"3264","[object Object]","5","01JH9TDR6MN0WNBFG20178VMG8","tangrams/110_157.png","270","tangrams/110_157.png,tangrams/33_157.png,tangrams/110_400.png,tangrams/33_400.png","the N","survey-html-form","41187","0.0-4.0","holistic","holistic"
"6033","[object Object]","6","01JH9TDR1YH4XDDEVPAQDKNZP8","tangrams/33_404.png","270","tangrams/33_404.png,tangrams/110_400.png,tangrams/110_404.png,tangrams/33_400.png","triangle to the left 2 spikes on the bottom","survey-html-form","47222","0.0-5.0","top_bottom","top_bottom"
"5347","[object Object]","7","01JH9TDR1MGA8E9QBH2Q72CHJN","tangrams/110_400.png","270","tangrams/115_400.png,tangrams/110_400.png,tangrams/110_157.png,tangrams/115_157.png","largest flat bottom","survey-html-form","52570","0.0-6.0","top_bottom","top_bottom"
"6499","[object Object]","8","01JH9TDR2PRGW6SFWEM2QHFEMX","tangrams/115_400.png","270","tangrams/115_400.png,tangrams/110_400.png,tangrams/110_410.png,tangrams/115_410.png","diamond on the left mostly flat right side","survey-html-form","59071","0.0-7.0","top_bottom","top_bottom"
"6481","[object Object]","9","01JH9TDR1ECJ5YF0VT3TP65PVQ","tangrams/273_410.png","270","tangrams/115_410.png,tangrams/273_410.png,tangrams/273_404.png,tangrams/115_404.png","rectangle on the left side one spike at the bottom","survey-html-form","65554","0.0-8.0","top","top"
"5280","[object Object]","10","01JH9TDR301A4ZFK8QYJZMHHDD","tangrams/33_157.png","270","tangrams/110_410.png,tangrams/110_157.png,tangrams/33_157.png,tangrams/33_410.png","large triangle on the left 2 spikes on the bottom","survey-html-form","70837","0.0-9.0","top_bottom","top_bottom"
"8580","[object Object]","11","01JH9TDR4K52D3V3T1P62MK0RE","tangrams/115_404.png","270","tangrams/33_404.png,tangrams/33_157.png,tangrams/115_157.png,tangrams/115_404.png","diamond on the left wider mid section","survey-html-form","79420","0.0-10.0","top_bottom","top_bottom"
"4102","[object Object]","12","01JH9TDR80TCFGAQPSBDY7DV3R","tangrams/115_410.png","270","tangrams/115_410.png,tangrams/33_410.png,tangrams/33_157.png,tangrams/115_157.png","diamond on the left flat bottom","survey-html-form","83523","0.0-11.0","top_bottom","top_bottom"
"3329","[object Object]","13","01JH9TDR5JBGTQKM9WBJNGC89Y","tangrams/115_157.png","270","tangrams/273_157.png,tangrams/273_404.png,tangrams/115_157.png,tangrams/115_404.png","diamond on the left flat edge on top","survey-html-form","86854","0.0-12.0","top_bottom","top_bottom"
"6732","[object Object]","14","01JH9TDR3BDWAQ7ZB226KC7BMX","tangrams/273_400.png","270","tangrams/273_157.png,tangrams/273_400.png,tangrams/33_400.png,tangrams/33_157.png","rectangle on the left only one spike on the bottom","survey-html-form","93587","0.0-13.0","top","top"
"13600","[object Object]","15","01JH9TDR491DP3FMXD5KQ05XHK","tangrams/273_157.png","270","tangrams/273_410.png,tangrams/110_410.png,tangrams/110_157.png,tangrams/273_157.png","on the bottom, rectangle to the left 2 spikes","survey-html-form","107188","0.0-14.0","top_bottom","top_bottom"
"4114","[object Object]","16","01JH9TDR3NWNN2K9G7TG4SCAZK","tangrams/110_410.png","270","tangrams/115_410.png,tangrams/110_410.png,tangrams/115_404.png,tangrams/110_404.png","largest flat bottom","survey-html-form","111304","0.0-15.0","top_bottom","top_bottom"
"7365","[object Object]","17","01JHGHAKTNTTS4066B1PVS0580","tangrams/375_154.png","180","tangrams/293_24.png,tangrams/341_453.png,tangrams/298_388.png,tangrams/375_154.png","white trapezoid in the middle","survey-html-form","118670","0.0-16.0","bottom","bottom"
"5849","[object Object]","18","01JHGHAKVKAA9HTS85JPMNAK3W","tangrams/293_388.png","180","tangrams/298_154.png,tangrams/375_24.png,tangrams/341_453.png,tangrams/293_388.png","top hat on diamond ends with upside down triangle","survey-html-form","124520","0.0-17.0","top_bottom","top_bottom"
"3785","[object Object]","19","01JHGHAKVE7962895GKE1NG9NZ","tangrams/298_453.png","180","tangrams/341_24.png,tangrams/375_388.png,tangrams/293_154.png,tangrams/298_453.png","black rectangle at the bottom","survey-html-form","128307","0.0-18.0","top","top"
"3963","[object Object]","20","01JHGHAKTYSJ1K06N92Q47PRQG","tangrams/298_24.png","180","tangrams/341_154.png,tangrams/293_453.png,tangrams/298_24.png,tangrams/375_388.png","white rectangle in the middle","survey-html-form","132271","0.0-19.0","bottom","bottom"
"3748","[object Object]","21","01JHGHAKTQMEXB1C1R5SYRJDAY","tangrams/375_453.png","180","tangrams/293_24.png,tangrams/298_154.png,tangrams/341_388.png,tangrams/375_453.png","bottom left has a parallelogram","survey-html-form","136021","0.0-20.0","top","top"
"3965","[object Object]","22","01JHGHAKT3X3JMJKCPSJH8V0W1","tangrams/298_154.png","180","tangrams/341_453.png,tangrams/293_388.png,tangrams/298_154.png,tangrams/375_24.png","white rhombus in the middle","survey-html-form","139988","0.0-21.0","bottom","bottom"
"3297","[object Object]","23","01JHGHAKVQ4FM6ZGR5HCQF2FDW","tangrams/341_154.png","180","tangrams/375_24.png,tangrams/293_388.png,tangrams/341_154.png,tangrams/298_453.png","white trapezoid in the middle","survey-html-form","143288","0.0-22.0","bottom","bottom"
"6599","[object Object]","24","01JHGHAKT8HJV75YQHT6AWKYH2","tangrams/341_453.png","180","tangrams/341_453.png,tangrams/375_388.png,tangrams/293_154.png,tangrams/298_24.png","body is a slanted rhombus and has a more square face","survey-html-form","149888","0.0-23.0","top_bottom","top_bottom"
"3398","[object Object]","25","01JHGHAKSCF40C4F1V8Z7ETWR1","tangrams/375_24.png","180","tangrams/341_154.png,tangrams/375_24.png,tangrams/298_453.png,tangrams/293_388.png","white rectangle in the middle","survey-html-form","153288","0.0-24.0","bottom","bottom"
"3386","[object Object]","26","01JHGHAKTBYWRXDRZK6F60G92Z","tangrams/341_24.png","180","tangrams/298_154.png,tangrams/341_24.png,tangrams/293_453.png,tangrams/375_388.png","white rectangle in the middle","survey-html-form","156674","0.0-25.0","bottom","bottom"
"6744","[object Object]","27","01JHGHAKS8D8MYTJ9N99M2TCNR","tangrams/375_388.png","180","tangrams/341_453.png,tangrams/293_154.png,tangrams/375_388.png,tangrams/298_24.png","wearing a top hat on diamond face has a parallelogram on bottom left","survey-html-form","163421","0.0-26.0","top_bottom","top_bottom"
"5232","[object Object]","28","01JHGHAKVNK7T6JZTMA3MNRDGT","tangrams/341_388.png","180","tangrams/375_453.png,tangrams/293_154.png,tangrams/341_388.png,tangrams/298_24.png","top hat on top of a diamond for the head","survey-html-form","168655","0.0-27.0","bottom","bottom"
"3052","[object Object]","29","01JHGHAKTH67FF44NR40DF9VXM","tangrams/293_154.png","180","tangrams/341_24.png,tangrams/298_453.png,tangrams/293_154.png,tangrams/375_388.png","white trapezoid in the middle","survey-html-form","171707","0.0-28.0","bottom","bottom"
"6044","[object Object]","30","01JHGHAKT1DWC97YX43PMQT7RN","tangrams/293_24.png","180","tangrams/375_388.png,tangrams/341_453.png,tangrams/298_154.png,tangrams/293_24.png","white rectangle in the middle","survey-html-form","177753","0.0-29.0","bottom","bottom"
"5165","[object Object]","31","01JHGHAKT5JJPCRNPDMT1XD87G","tangrams/293_453.png","180","tangrams/341_154.png,tangrams/375_24.png,tangrams/293_453.png,tangrams/298_388.png","head is a cat face and the bottom is a upside down triangle","survey-html-form","182919","0.0-30.0","top_bottom","top_bottom"
"4783","[object Object]","32","01JHGHAKTFZY99M02XYTHTQ91T","tangrams/298_388.png","180","tangrams/375_453.png,tangrams/298_388.png,tangrams/293_154.png,tangrams/341_24.png","diamond with top hat ends with rectangle","survey-html-form","187703","0.0-31.0","top_bottom","top_bottom"
"10165","[object Object]","33","01JJ02QTA1T6WG3SM8P0VDR37R","tangrams/266_218.png","270","tangrams/266_218.png,tangrams/254_334.png,tangrams/379_340.png,tangrams/69_315.png","Pick the one that looks like an animal with 2 legs only one straight leg and the other crooked leg","survey-html-form","197870","0.0-32.0","top_bottom","top_bottom"
"2814","[object Object]","34","01JJ02QT6ZPJF088XV8Q95AKSG","tangrams/237_100.png","270","tangrams/237_100.png,tangrams/95_337.png,tangrams/66_170.png,tangrams/266_218.png","Letter R","survey-html-form","200687","0.0-33.0","holistic","holistic"
"17116","[object Object]","35","01JJ02QT9M22PWTJK5CEQQ3GAN","tangrams/95_337.png","270","tangrams/69_315.png,tangrams/71_134.png,tangrams/95_337.png,tangrams/266_218.png","Pick the one that looks like a stretched graduation hat looking from the side","survey-html-form","217804","0.0-34.0","top","top"
"3064","[object Object]","36","01JJ02QTA6YTAKQG82TBDJJ07H","tangrams/47_417.png","270","tangrams/95_337.png,tangrams/379_340.png,tangrams/47_417.png,tangrams/360_199.png","a deep sea oil rig on its side","survey-html-form","220870","0.0-35.0","holistic","holistic"
"6814","[object Object]","37","01JJ02QT8R56Z6SQZ7NFQPAVDS","tangrams/167_146.png","270","tangrams/167_146.png,tangrams/370_333.png,tangrams/379_340.png,tangrams/83_261.png","on its right are two legs two feet and a downward point","survey-html-form","227686","0.0-36.0","bottom","bottom"
"13181","[object Object]","38","01JJ02QT91HEV1BPYF6Y4JF5XG","tangrams/257_453.png","270","tangrams/66_170.png,tangrams/167_146.png,tangrams/257_453.png,tangrams/370_333.png","its point meets in its middle one small side on large side looks like x","survey-html-form","240870","0.0-37.0","top_bottom","top_bottom"
"6699","[object Object]","39","01JJ02QT968CCZBESMJR5S2B32","tangrams/83_261.png","270","tangrams/370_333.png,tangrams/266_218.png,tangrams/95_337.png,tangrams/83_261.png","a person hand forward protrusions on their back","survey-html-form","247570","0.0-38.0","holistic","holistic"
"15981","[object Object]","40","01JJ02QT8MC75PPNXZW4GWXCC3","tangrams/71_134.png","270","tangrams/467_451.png,tangrams/237_100.png,tangrams/167_146.png,tangrams/71_134.png","Looks like the shape has a small shaped head, Looks like TWO different shapes meeting together at a point with the smaller shape on TOP when looking from side","survey-html-form","263554","0.0-39.0","bottom","bottom"
"10432","[object Object]","41","01JJ02QTAF0DVTN6AH3NGSHY34","tangrams/69_315.png","270","tangrams/66_170.png,tangrams/254_334.png,tangrams/167_146.png,tangrams/69_315.png","Looks like a dinosaur with an letter S in it s mouth hanging on the right side","survey-html-form","273987","0.0-40.0","holistic","holistic"
"4348","[object Object]","42","01JJ02QT9XEMJSSGPAMQ4M8C6Y","tangrams/467_451.png","270","tangrams/237_100.png,tangrams/71_134.png,tangrams/266_218.png,tangrams/467_451.png","the letter f","survey-html-form","278337","0.0-41.0","bottom","bottom"
"4232","[object Object]","43","01JJ02QT8AW9J2S8GNNDXWZNEQ","tangrams/379_340.png","270","tangrams/360_199.png,tangrams/83_261.png,tangrams/167_146.png,tangrams/379_340.png","cat ears looks a bit like the Batman symbok","survey-html-form","282569","0.0-42.0","holistic","holistic"
"4516","[object Object]","44","01JJ02QT9RY5289XGENFHN1CZ8","tangrams/360_199.png","270","tangrams/71_134.png,tangrams/83_261.png,tangrams/360_199.png,tangrams/467_451.png","Shape of US state","survey-html-form","287086","0.0-43.0","holistic","holistic"
"9515","[object Object]","45","01JJ02QT8XQ5YXN0Q1V2SP863W","tangrams/254_334.png","270","tangrams/254_334.png,tangrams/257_453.png,tangrams/83_261.png,tangrams/66_170.png","Looks like a STAR on the top when looking at it from the side","survey-html-form","296602","0.0-44.0","top","top"
"9834","[object Object]","46","01JJ02QT9FJ3PJA52K22A241MY","tangrams/240_388.png","270","tangrams/83_261.png,tangrams/240_388.png,tangrams/379_340.png,tangrams/257_453.png","its point meets in its middle on its side, large","survey-html-form","306436","0.0-45.0","bottom","bottom"
"7214","[object Object]","47","01JJ02QT9ACNMRQ7Z1RVM1P8K2","tangrams/66_170.png","270","tangrams/467_451.png,tangrams/66_170.png,tangrams/360_199.png,tangrams/237_100.png","Fold shape in half it will fold over itself evenly","survey-html-form","313653","0.0-46.0","holistic","holistic"
"2149","[object Object]","48","01JJ02QTABK1NC44XS1GJEPY64","tangrams/370_333.png","270","tangrams/360_199.png,tangrams/167_146.png,tangrams/467_451.png,tangrams/370_333.png","the profile of a human face","survey-html-form","315803","0.0-47.0","holistic","holistic"