rt,response,trial_index,roundID,target,rotation,tangramURLs,director_msg,trial_type,time_elapsed,internal_node_id,annotationLabel,annotation
"7059","[object Object]","1","01JHDTFN5NQ72H3WE3SSPX61CQ","tangrams/246_381.png","180","tangrams/378_108.png,tangrams/418_61.png,tangrams/414_225.png,tangrams/246_381.png","snowman","survey-html-form","7067","0.0-0.0","holistic","holistic"
"2980","[object Object]","2","01JHDTFNHW1K9N0DCC02C8P11B","tangrams/400_249.png","180","tangrams/400_249.png,tangrams/449_177.png,tangrams/414_225.png,tangrams/418_61.png","bowtie","survey-html-form","10055","0.0-1.0","bottom","bottom"
"3703","[object Object]","3","01JHDTFNBS0DVM9YKB00RHXF81","tangrams/418_61.png","180","tangrams/400_249.png,tangrams/414_225.png,tangrams/418_61.png,tangrams/357_465.png","two teeth","survey-html-form","13764","0.0-2.0","top","top"
"3693","[object Object]","4","01JHDTFNFACSG53VVM525P117W","tangrams/150_56.png","180","tangrams/267_42.png,tangrams/18_45.png,tangrams/418_61.png,tangrams/150_56.png","bbq","survey-html-form","17463","0.0-3.0","holistic","holistic"
"4931","[object Object]","5","01JHDTFNG6MVE8KHCS4TVWHCET","tangrams/267_42.png","180","tangrams/357_465.png,tangrams/267_42.png,tangrams/18_45.png,tangrams/246_381.png","cat or goat","survey-html-form","22399","0.0-4.0","holistic","holistic"
"2483","[object Object]","6","01JHDTFN84FMAR8JJB8TMNSB4X","tangrams/454_114.png","180","tangrams/454_114.png,tangrams/446_200.png,tangrams/357_465.png,tangrams/138_67.png","one leg","survey-html-form","24884","0.0-5.0","top","top"
"2665","[object Object]","7","01JHDTFNE7ZC44RMAT4ZRAS68Q","tangrams/350_14.png","180","tangrams/350_14.png,tangrams/11_198.png,tangrams/414_225.png,tangrams/138_67.png","funnel","survey-html-form","27552","0.0-6.0","bottom","bottom"
"13947","[object Object]","8","01JHDTFNMEHKTRJ1SRYJ849VWC","tangrams/446_200.png","180","tangrams/378_108.png,tangrams/267_42.png,tangrams/446_200.png,tangrams/11_198.png","symmetric left chunk","survey-html-form","41506","0.0-7.0","bottom","bottom"
"3631","[object Object]","9","01JHDTFNJQJD2X46BCV1WGZGAP","tangrams/378_108.png","180","tangrams/138_67.png,tangrams/449_177.png,tangrams/400_249.png,tangrams/378_108.png","square on right side","survey-html-form","45139","0.0-8.0","bottom","bottom"
"5865","[object Object]","10","01JHDTFP1XH0Z4K7QGFEDJP31F","tangrams/101_93.png","180","tangrams/150_56.png,tangrams/101_93.png,tangrams/267_42.png,tangrams/378_108.png","whale fish","survey-html-form","51007","0.0-9.0","holistic","holistic"
"2447","[object Object]","11","01JHDTFNN9C0NJXPHWA7WGAA3Q","tangrams/414_225.png","180","tangrams/418_61.png,tangrams/414_225.png,tangrams/378_108.png,tangrams/357_465.png","down arrow","survey-html-form","53457","0.0-10.0","top","top"
"5481","[object Object]","12","01JHDTFNH1CM0JT2NTMYMB1D9J","tangrams/18_45.png","180","tangrams/400_249.png,tangrams/246_381.png,tangrams/418_61.png,tangrams/18_45.png","devil goat","survey-html-form","58941","0.0-11.0","holistic","holistic"
"5149","[object Object]","13","01JHDTFN36864WXH9C6Q64GW9N","tangrams/449_177.png","180","tangrams/449_177.png,tangrams/267_42.png,tangrams/414_225.png,tangrams/350_14.png","triangle roof house","survey-html-form","64091","0.0-12.0","bottom","bottom"
"2864","[object Object]","14","01JHDTFNAKKTH6G30H69QPM959","tangrams/138_67.png","180","tangrams/138_67.png,tangrams/246_381.png,tangrams/378_108.png,tangrams/11_198.png","parted hair","survey-html-form","66958","0.0-13.0","bottom","bottom"
"3362","[object Object]","15","01JHDTFND0RCA1ZD0R74P7VK16","tangrams/357_465.png","180","tangrams/418_61.png,tangrams/138_67.png,tangrams/357_465.png,tangrams/400_249.png","wide bat","survey-html-form","70325","0.0-14.0","holistic","holistic"
"11063","[object Object]","16","01JHDTFN9B4W2N654SN1MJDXQ0","tangrams/11_198.png","180","tangrams/454_114.png,tangrams/11_198.png,tangrams/138_67.png,tangrams/378_108.png","fish pointing up","survey-html-form","81391","0.0-15.0","top_bottom","top_bottom"
"5498","[object Object]","17","01JHGHN1DNC25V7PYYPPYVMKAH","tangrams/38_137.png","90","tangrams/450_81.png,tangrams/38_137.png,tangrams/23_88.png,tangrams/277_41.png","e","survey-html-form","86891","0.0-16.0","top","top"
"3165","[object Object]","18","01JHGHN1ERGY0SSV02A147X9JC","tangrams/23_137.png","90","tangrams/38_81.png,tangrams/277_88.png,tangrams/23_137.png,tangrams/450_41.png","flat","survey-html-form","90058","0.0-17.0","top","top"
"2582","[object Object]","19","01JHGHN1H6NVTFDSCXX3E9KYQX","tangrams/38_41.png","90","tangrams/277_88.png,tangrams/450_137.png,tangrams/38_41.png,tangrams/23_81.png","e","survey-html-form","92641","0.0-18.0","top","top"
"2580","[object Object]","20","01JHGHN1HABQ7FH6A9H1TM74F0","tangrams/23_88.png","90","tangrams/23_88.png,tangrams/38_81.png,tangrams/277_137.png,tangrams/450_41.png","flat","survey-html-form","95225","0.0-19.0","top","top"
"4014","[object Object]","21","01JHGHN1FZE7GCHDTAVJK4RMHK","tangrams/277_137.png","90","tangrams/38_41.png,tangrams/277_137.png,tangrams/450_81.png,tangrams/23_88.png","pointed","survey-html-form","99241","0.0-20.0","top","top"
"2899","[object Object]","22","01JHGHN1J80XTCSHFZ5BKAZ7Q7","tangrams/277_41.png","90","tangrams/38_88.png,tangrams/23_137.png,tangrams/450_81.png,tangrams/277_41.png","pointed","survey-html-form","102141","0.0-21.0","top","top"
"2764","[object Object]","23","01JHGHN1F2SNGGFDYPPAF3F3H7","tangrams/450_137.png","90","tangrams/23_88.png,tangrams/277_81.png,tangrams/450_137.png,tangrams/38_41.png","diamond","survey-html-form","104908","0.0-22.0","top","top"
"2265","[object Object]","24","01JHGHN1E1TD0RE7J4E2ZTY9Q2","tangrams/277_81.png","90","tangrams/23_137.png,tangrams/38_41.png,tangrams/450_88.png,tangrams/277_81.png","pointed","survey-html-form","107175","0.0-23.0","top","top"
"1714","[object Object]","25","01JHGHN1HX0M59AGJE6E71ZG6A","tangrams/38_88.png","90","tangrams/23_137.png,tangrams/277_81.png,tangrams/38_88.png,tangrams/450_41.png","e","survey-html-form","108891","0.0-24.0","top","top"
"2032","[object Object]","26","01JHGHN1GQTH1ZA8B1JNJ1XPX4","tangrams/23_41.png","90","tangrams/23_41.png,tangrams/450_137.png,tangrams/277_81.png,tangrams/38_88.png","flat","survey-html-form","110925","0.0-25.0","top","top"
"1714","[object Object]","27","01JHGHN1FJEV7B9MPA6J8FJRS6","tangrams/277_88.png","90","tangrams/277_88.png,tangrams/23_41.png,tangrams/450_137.png,tangrams/38_81.png","pointed","survey-html-form","112640","0.0-26.0","top","top"
"2263","[object Object]","28","01JHGHN1HG3XV250KAQYXR1PAV","tangrams/23_81.png","90","tangrams/450_41.png,tangrams/277_88.png,tangrams/38_137.png,tangrams/23_81.png","flat","survey-html-form","114906","0.0-27.0","top","top"
"1833","[object Object]","29","01JHGHN1J2KAVTQWRQ9D7FDTG9","tangrams/450_41.png","90","tangrams/450_41.png,tangrams/38_81.png,tangrams/277_88.png,tangrams/23_137.png","diamonds","survey-html-form","116741","0.0-28.0","top","top"
"2231","[object Object]","30","01JHGHN1GA8NQNNTS22PDH3F84","tangrams/450_88.png","90","tangrams/23_41.png,tangrams/450_88.png,tangrams/277_81.png,tangrams/38_137.png","diamond","survey-html-form","118974","0.0-29.0","top","top"
"1731","[object Object]","31","01JHGHN1CWA221X3VHJB1FHVJ7","tangrams/38_81.png","90","tangrams/450_137.png,tangrams/277_41.png,tangrams/38_81.png,tangrams/23_88.png","e","survey-html-form","120706","0.0-30.0","top","top"
"1850","[object Object]","32","01JHGHN1HS1C62STGJ5EFT6A5V","tangrams/450_81.png","90","tangrams/23_88.png,tangrams/450_81.png,tangrams/277_137.png,tangrams/38_41.png","diamond","survey-html-form","122557","0.0-31.0","top","top"
"6583","[object Object]","33","01JHXSRCXCSNVVS38NNY9XCAAZ","tangrams/340_235.png","180","tangrams/340_424.png,tangrams/165_424.png,tangrams/165_235.png,tangrams/340_235.png","Chimn top half bottom","survey-html-form","129142","0.0-32.0","top_bottom","top_bottom"
"2963","[object Object]","34","01JHXSRCWTMZTQYXMKX62QZS5W","tangrams/178_424.png","180","tangrams/165_424.png,tangrams/178_235.png,tangrams/178_424.png,tangrams/165_235.png","hole in middle, no chimney top","survey-html-form","132107","0.0-33.0","top_bottom","top_bottom"
"2482","[object Object]","35","01JHXSRCY06JZ13K8ZKM67C1H1","tangrams/307_235.png","180","tangrams/307_42.png,tangrams/165_235.png,tangrams/307_235.png,tangrams/165_42.png","one chimney top, three chimney bottom","survey-html-form","134592","0.0-34.0","top_bottom","top_bottom"
"5280","[object Object]","36","01JHXSRCXNPQM7E2N2BSQ2KKH4","tangrams/165_291.png","180","tangrams/165_291.png,tangrams/340_291.png,tangrams/340_235.png,tangrams/165_235.png","full, triangle top","survey-html-form","139873","0.0-35.0","top_bottom","top_bottom"
"2482","[object Object]","37","01JHXSRCWP5TG37TYS0FJAEE62","tangrams/340_424.png","180","tangrams/178_291.png,tangrams/178_424.png,tangrams/340_291.png,tangrams/340_424.png","Half bottom, No triangle top","survey-html-form","142357","0.0-36.0","top_bottom","top_bottom"
"2447","[object Object]","38","01JHXSRCWYFX50ZJPAJB9DDSXV","tangrams/178_235.png","180","tangrams/307_235.png,tangrams/307_42.png,tangrams/178_235.png,tangrams/178_42.png","hole in middle, one chimney top","survey-html-form","144807","0.0-37.0","top_bottom","top_bottom"
"2231","[object Object]","39","01JHXSRCN4NYFN56V09QB4XYQM","tangrams/340_42.png","180","tangrams/178_42.png,tangrams/178_424.png,tangrams/340_424.png,tangrams/340_42.png","2 chin top half bottom","survey-html-form","147041","0.0-38.0","top_bottom","top_bottom"
"2047","[object Object]","40","01JHXSRCXTN437BX70NSWQQW24","tangrams/307_42.png","180","tangrams/307_235.png,tangrams/307_42.png,tangrams/165_42.png,tangrams/165_235.png","2 top 3chim bottom","survey-html-form","149090","0.0-39.0","top_bottom","top_bottom"
"6796","[object Object]","41","01JHXSRCYAF3YMFQHHH3EHN5Y5","tangrams/178_42.png","180","tangrams/340_42.png,tangrams/178_42.png,tangrams/340_291.png,tangrams/178_291.png","chimney top, hole in middle, shit im dumb read wrong","survey-html-form","155889","0.0-40.0","top_bottom","top_bottom"
"2683","[object Object]","42","01JHXSRCY52H2C7RZXAT1X0C0H","tangrams/165_235.png","180","tangrams/165_235.png,tangrams/165_291.png,tangrams/340_291.png,tangrams/340_235.png","Flat bottom chimney top 1 chimn","survey-html-form","158573","0.0-41.0","top_bottom","top_bottom"
"2048","[object Object]","43","01JHXSRCYFX32RR9HPE718MM2W","tangrams/165_42.png","180","tangrams/307_424.png,tangrams/165_42.png,tangrams/307_42.png,tangrams/165_424.png","2 chin top flat blttom","survey-html-form","160624","0.0-42.0","top_bottom","top_bottom"
"1997","[object Object]","44","01JHXSRCNA0GAAF8DM1A6BH777","tangrams/165_424.png","180","tangrams/165_424.png,tangrams/340_42.png,tangrams/165_42.png,tangrams/340_424.png","full, no chimney","survey-html-form","162623","0.0-43.0","top_bottom","top_bottom"
"2332","[object Object]","45","01JHXSRCX34HM5ADW1H231H21C","tangrams/340_291.png","180","tangrams/340_424.png,tangrams/340_291.png,tangrams/165_424.png,tangrams/165_291.png","Triangle top half bottom","survey-html-form","164957","0.0-44.0","top_bottom","top_bottom"
"1881","[object Object]","46","01JHXSRCYMAWXM51CZJ3EPFR3G","tangrams/307_424.png","180","tangrams/307_424.png,tangrams/307_42.png,tangrams/340_42.png,tangrams/340_424.png","no chimney top, three chimney bottom","survey-html-form","166840","0.0-45.0","top_bottom","top_bottom"
"2164","[object Object]","47","01JHXSRCWD51V1BYJQQ8FM70HN","tangrams/178_291.png","180","tangrams/178_291.png,tangrams/178_42.png,tangrams/165_291.png,tangrams/165_42.png","hole in middle, triangle top","survey-html-form","169007","0.0-46.0","top_bottom","top_bottom"
"1798","[object Object]","48","01JHXSRCXH62V5BX9TT4V4EJ3V","tangrams/307_291.png","180","tangrams/307_291.png,tangrams/307_42.png,tangrams/178_42.png,tangrams/178_291.png","Triangle top 3 chimn bottom","survey-html-form","170807","0.0-47.0","top_bottom","top_bottom"